Folder: Tensile_-_compressive_strength/artifacts/initial_prepared_data

Note: README.md
# Tensile strength development of concrete with manufactured sand

```buildoutcfg
Concrete with manufactured sand (MSC) is a potential environmental friendly
building material. With the widespread awareness of the environmental friendly 
construction and the sustainability of urbanization development,the supply of 
natural sand is limited by the governmental protection of farmland and river 
course. Manufactured sand crushed from stone or gravel, also known as 
machine-made sand,artificial sand or crushed-stone sand, has been used as 
a substitute of natural sand in concrete.
It has also been reported the influence that the manufactured sand replacing 
natural sand has on bond property between steel bar and MSC. Relative to the 
studies that mainly focused on long-term compressive strength of MSC, a 
limited number of studies have investigated on the long-term tensile strength 
of MSC. 
While it is widely accepted that tensile strength is related to compressive
strength, increasing compressive strength by using manufactured sand has
been found to improve the tensile strength of MSC , but the
conversion from compressive strength to tensile strength was lack
of determination. As the significance of steady long-term tensile
strength harmonized with compressive strength of MSC to the
reliable cracking resistance and serviceable crack development,
and the load-carrying capacities of reinforced concrete structures
under flexure, shear, torsion, punching, fatigue and impaction,
the further studies on the determination of long-term tensile
strength of MSC is still necessary.
```
##This model will do predicting the tensile strength & compressive strength of concrete

### DATA SET

A consisted of 755 datasets of splitting tensile strength at
different curing days of MSC was assembled from 41 experimental
studies.
 Raw materials of MSC
were the ordinary silicate cements, the admixture consisted of fly
ash, slag and silica fume, the crushed stone with maximum grain
size in a range of 12 mm ~ 120 mm the manufactured sand with
fineness modulus in a range of 2.2â€“3.55. In these experimental
studies, different maximum particle sizes of 0.075 mm and
0.160 mm were defined for stone powder in manufactured sand.
The contents of stone powder with particle size of 0 ~ 0.075 mm
ranged in 0 ~ 21.8%, whereas those with particle size of
0 ~ 0.160 mm varied in 0 ~ 40%. The water-binder ratio
W/B = 0.24 ~ 1.00, while the water-cement ratio
mw/mc = 0.30 ~ 1.43. The sand ratio was 24% ~ 54%. The slump of
fresh MSC varied from 10 mm to 260 mm, the curing time of specimens 
ranged from 1 day to 388 days. The compressive strength of
MSC at 28 days ranged from 10.1 MPa to 96.3 MPa.

##**As Data set have few missing values.**
###Missing values can be handle by following methods:
```buildoutcfg
1. Removing the instance with any missing features - 
In this method, the missing values are deleted from the dataset. In 
general, this method is adopted only when the proportion of missin

File: init_data.csv
Source,Compressive strength of cementfce(MPa),Tensile strength of cementfct(MPa),Curing age (day),Dmax of Crushed stone(mm),Stone powder content in Sand (%),Fineness modulus of sand ,W/B,Water to cement ratio mw/mc,Water(kg/m3),Sand ratio(%),Slump(mm),"Compressive strengthfcu,t(MPa)","Splitting tensile strengthfst,t(MPa)"
Zhao et al [1],46.8,8.0,3,31.5,5,3.34,0.56,0.56,180,44,50,32.5,1.18
Zhao et al [1],46.8,8.0,3,31.5,13,2.77,0.56,0.56,180,44,50,28.5,1.56
Zhao et al [1],46.8,8.0,7,31.5,9,3.27,0.56,0.56,180,44,70,34.9,1.38
Zhao et al [1],46.8,8.0,14,31.5,5,3.34,0.56,0.56,180,44,50,39.7,2.62
Zhao et al [1],46.8,8.0,14,31.5,13,2.77,0.56,0.56,180,44,50,37.0,2.31
Zhao et al [1],46.8,8.0,28,31.5,9,3.27,0.56,0.56,180,44,70,41.3,3.75
Zhao et al [1],46.8,8.0,42,31.5,5,3.34,0.56,0.56,180,44,50,42.0,3.31
Zhao et al [1],46.8,8.0,42,31.5,13,2.77,0.56,0.56,180,44,50,42.3,3.43
Zhao et al [1],46.8,8.0,56,31.5,9,3.27,0.56,0.56,180,44,70,42.4,3.99
Zhao et al [1],46.8,8.0,84,31.5,5,3.34,0.56,0.56,180,44,50,47.4,4.42
Zhao et al [1],46.8,8.0,84,31.5,13,2.77,0.56,0.56,180,44,50,48.0,4.48
Zhao et al [1],46.8,8.0,118,31.5,9,3.27,0.56,0.56,180,44,70,49.3,4.03
Zhao et al [1],46.8,8.0,178,31.5,5,3.34,0.56,0.56,180,44,50,49.7,4.68
Zhao et al [1],46.8,8.0,178,31.5,13,2.77,0.56,0.56,180,44,50,49.9,4.42
Zhao et al [1],46.8,8.0,238,31.5,9,3.27,0.56,0.56,180,44,70,55.4,3.92
Zhao et al [1],46.8,8.0,298,31.5,5,3.34,0.56,0.56,180,44,50,51.2,4.36
Zhao et al [1],46.8,8.0,298,31.5,13,2.77,0.56,0.56,180,44,50,54.8,4.23
Zhao et al [1],46.8,8.0,358,31.5,9,3.27,0.56,0.56,180,44,70,56.4,4.22
Zhao et al [1],46.8,8.0,3,31.5,5,3.34,0.45,0.45,180,36,110,38.4,2.67
Zhao et al [1],46.8,8.0,3,31.5,13,2.77,0.45,0.45,180,36,45,38.1,2.71
Zhao et al [1],46.8,8.0,7,31.5,9,3.27,0.45,0.45,180,36,160,42.3,3.02
Zhao et al [1],46.8,8.0,14,31.5,5,3.34,0.45,0.45,180,36,110,44.9,3.06
Zhao et al [1],46.8,8.0,14,31.5,13,2.77,0.45,0.45,180,36,45,44.2,3.01
Zhao et al [1],46.8,8.0,28,31.5,9,3.27,0.45,0.45,180,36,160,50.9,3.19
Zhao et al [1],46.8,8.0,35,31.5,5,3.34,0.45,0.45,180,36,110,51.6,3.49
Zhao et al [1],46.8,8.0,35,31.5,13,2.77,0.45,0.45,180,36,45,52.6,3.43
Zhao et al [1],46.8,8.0,42,31.5,9,3.27,0.45,0.45,180,36,160,53.6,3.67
Zhao et al [1],46.8,8.0,56,31.5,5,3.34,0.45,0.45,180,36,110,54.2,3.96
Zhao et al [1],46.8,8.0,56,31.5,13,2.77,0.45,0.45,180,36,45,56.0,3.76
Zhao et al [1],46.8,8.0,70,31.5,9,3.27,0.45,0.45,180,36,160,55.0,3.86
Zhao et al [1],46.8,8.0,84,31.5,5,3.34,0.45,0.45,180,36,110,56.5,4.32
Zhao et al [1],46.8,8.0,84,31.5,13,2.77,0.45,0.45,180,36,45,57.0,4.48
Zhao et al [1],46.8,8.0,98,31.5,9,3.27,0.45,0.45,180,36,160,58.8,4.31
Zhao et al [1],46.8,8.0,118,31.5,5,3.34,0.45,0.45,180,36,110,59.7,4.61
Zhao et al [1],46.8,8.0,118,31.5,13,2.77,0.45,0.45,180,36,45,63.0,4.48
Zhao et al [1],46.8,8.0,148,31.5,9,3.27,0.45,0.45,180,36,160,64.1,4.27
Zhao et al [1],46.8,8.0,178,31.5,5,3.34,0.45,0.45,180,36,110,63.1,4.45
Zhao et al [1],46.8,8.0,178,31.5,13,2.77,0.45,0.45,180,36,45,66.2,4.29
Zhao et al [1],46.8,8.0,208,31.5,9,3.27,0.45,0.45,180,36,160,65.1,4.41
Zhao et al [1],46.8,8.0,238,31.5,5,3.34,0.45,0.45,180,36,110,64.4,4.26
Zhao et al [1],46.8,8.0,238,31.5,13,2.77,0.45,0.45,180,36,45,68.7,4.24
Zhao et al [1],46.8,8.0,268,31.5,9,3.27,0.45,0.45,180,36,160,68.3,4.29
Zhao et al [1],46.8,8.0,298,31.5,5,3.34,0.45,0.45,180,36,110,67.1,4.21
Zhao et al [1],46.8,8.0,298,31.5,13,2.77,0.45,0.45,180,36,45,71.2,4.35
Zhao et al [1],46.8,8.0,328,31.5,9,3.27,0.45,0.45,180,36,160,71.1,4.11
Zhao et al [1],46.8,8.0,358,31.5,5,3.34,0.45,0.45,180,36,110,67.8,4.45
Zhao et al [1],46.8,8.0,358,31.5,13,2.77,0.45,0.45,180,36,45,72.0,4.35
Zhao et al [1],46.8,8.0,388,31.5,9,3.27,0.45,0.45,180,36,160,71.9,4.31
Zhao et al [1],46.8,8.0,3,31.5,5,3.34,0.40,0.40,185,34,30,42.7,2.96
Zhao et al [1],46.8,8.0,3,31.5,13,2.77,0.40,0.40,185,34,50,34.0,2.39
Zhao et al [1],46.8,8.0,7,31.5,9,3.27,0.40,0.40,185,34,60,49.7,3.39
Zhao et al [1],46.8,8.0,14,31.5,5,3.34,0.40,0.40,185,34,30,51.9,3.41
Zhao et al [1],46.8,8.0,14,31.5,13,2.77,0.40,0.40,185,34,50,43.8,3.45
Zhao et al [1],46.8,8.0,28,31.5,9,3.27,0.40,0.40,185,34,60,61.7,3.52
Zhao et al [1],46.8,8.0,42,31.5,5,3.34,0.40,0.40,185,34,30,64.0,3.94
Zhao et al [1],46.8,8.0,42,31.5,13,2.77,0.40,0.40,185,34,50,60.6,3.79
Zhao et al [1],46.8,8.0,56,31.5,9,3.27,0.40,0.40,185,34,60,64.0,4.03
Zhao et al [1],46.8,8.0,84,31.5,5,3.34,0.40,0.40,185,34,30,66.9,4.02
Zhao et al [1],46.8,8.0,84,31.5,13,2.77,0.40,0.40,185,34,50,63.0,4.35
Zhao et al [1],46.8,8.0,118,31.5,9,3.27,0.40,0.40,185,34,60,65.0,4.47
Zhao et al [1],46.8,8.0,178,31.5,5,3.34,0.40,0.40,185,34,30,68.0,4.68
Zhao et al [1],46.8,8.0,178,31.5,13,2.77,0.40,0.40,185,34,50,67.8,3.99
Zhao et al [1],46.8,8.0,238,31.5,9,3.27,0.40,0.40,185,34,60,71.0,4.02
Zhao et al [1],46.8,8.0,298,31.5,5,3.34,0.40,0.40,185,34,30,74.1,4.59
Zhao et al [1],46.8,8.0,298,31.5,13,2.77,0.40,0.40,185,34,50,70.6,4.18
Zhao et al [1],46.8,8.0,358,31.5,9,3.27,0.40,0.40,185,34,60,78.2,4.24
Li et al. [2],38.2,6.9,28,25,3,3.19,0.47,0.47,190,36,22,47.1,2.95
Li et al. [2],38.2,6.9,28,25,7,3.19,0.47,0.47,190,36,28,44.3,3.44
Li et al. [2],38.2,6.9,28,25,13,3.19,0.47,0.47,190,36,17,43.4,3.60
Li et al. [2],47.7,8.7,28,25,3,3.19,0.32,0.32,170,30,20,69.6,4.00
Li et al. [2],47.7,8.7,28,25,7,3.19,0.32,0.32,170,30,13,74.7,4.34
Li et al. [2],47.7,8.7,28,25,13,3.19,0.32,0.32,170,30,20,69.8,4.37
Li et al. [2],47.7,8.7,28,25,5,3.19,0.44,0.44,180,32,85,57,3.68
Li et al. [2],47.7,8.7,28,25,10,3.19,0.44,0.44,180,32,75,56.7,4.11
Li et al. [2],47.7,8.7,28,25,16,3.19,0.44,0.44,180,32,60,56.2,2.86
Li et al. [2],46.3,8.4,28,25,9,3.19,0.56,0.56,170,42,80,43.8,3.31
Li et al. [2],46.3,8.4,28,25,5,3.19,0.45,0.45,185,34,70,48.7,3.11
Li et al. [2],46.3,8.4,28,25,13,3.19,0.45,0.45,185,34,100,56.3,4.61
Li et al. [2],46.3,8.4,28,25,9,3.19,0.4,0.4,190,32,170,60.7,4.33
Li et al. [2],46.3,8.4,28,25,5,3.19,0.32,0.32,175,28,50,70.9,3.95
Li et al. [2],46.3,8.4,28,25,13,3.19,0.32,0.32,175,28,100,66.7,5.45
Li et al. [2],38.2,6.9,28,26.5,7,3.23,0.47,0.47,190,36,19,38.7,3.14
Li et al. [2],47.7,8.7,28,26.5,3,3.23,0.44,0.44,180,32,75,50.4,3.65
Li et al. [2],47.7,8.7,28,26.5,13,3.23,0.44,0.44,180,32,60,55.4,4.08
Li et al. [2],47.7,8.7,28,26.5,7,3.23,0.32,0.32,170,30,15,63.1,5.16
Li et al. [2],48.2,8.4,28,26.5,5,3.23,0.55,0.55,160,38,115,43.4,2.96
Li et al. [2],48.2,8.4,28,26.5,13,3.23,0.55,0.55,160,38,22,43.2,3.20
Li et al. [2],48.2,8.4,28,26.5,9,3.23,0.44,0.44,170,34,135,52.4,3.47
Li et al. [2],48.2,8.4,28,26.5,5,3.23,0.36,0.36,170,32,95,59.9,3.51
Li et al. [2],48.2,8.4,28,26.5,13,3.23,0.36,0.36,170,32,70,59.6,4.53
Li et al. [2],48.2,8.4,28,26.5,9,3.23,0.31,0.31,170,30,20,68.3,3.99
Li et al. [2],46.3,8.4,28,26.5,6.75,3.19,0.56,0.56,170,42,-,39.2,3.47
Li et al. [2],46.3,8.4,28,26.5,6.75,3.19,0.32,0.32,170,28,-,59.1,4.31
"He et al. [4, 5]",-,-,28,30,4.3,3.0,0.25,0.33,150,41,-,74.4,5.41
"He et al. [4,5]",-,-,90,30,4.3,3.0,0.25,0.33,150,41,-,94.1,6.50
Jiang [6],-,-,28,31.5,5.8,3.1,0.42,0.42,185,36,36,38.3,3.04
Jiang [6],-,-,28,31.5,5.8,3.1,0.46,0.46,185,36,43,34.2,2.60
Jiang [6],-,-,28,31.5,5.8,3.1,0.42,0.42,185,40,40,37.3,3.24
Li et al [7],-,-,28,-,-,-,0.5,0.5,180,39,205,45.3,4.68
Li et al [7],-,-,28,-,-,-,0.55,0.55,180,40,200,41.7,4.5
Li and Zhang [8],-,-,28,-,4.3,2.86,-,-,-,-,-,35.8,1.63
Li and Zhang [8],-,-,28,-,7.5,3.04,-,-,-,-,-,36.5,1.77
[...]
Yang et al. [38],62.4,8.4,28,80,11.9*,2.86,0.50,1.11,70~72,-,<10,20.1,1.6
Yang et al. [38],62.4,8.4,28,80,11.9*,2.86,0.50,1.25,70~72,-,<10,14.9,1.45
Yang et al. [38],62.4,8.4,28,80,6.1*,2.92,0.50,0.83,81~83,-,<10,21.8,1.92
Yang et al. [38],62.4,8.4,28,80,6.1*,2.92,0.50,1.11,81~83,-,<10,14.0,1.06
Yang et al. [38],62.4,8.4,28,80,6.1*,2.92,0.50,1.43,81~83,-,<10,12.9,1.16
Yang et al. [38],62.4,8.4,90,40,11.9*,2.86,0.50,1.00,87~89,-,<10,28.0,2.12
Yang et al. [38],62.4,8.4,90,40,11.9*,2.86,0.50,1.11,87~89,-,<10,24.4,2.09
Yang et al. [38],62.4,8.4,90,40,11.9*,2.86,0.50,1.43,87~89,-,<10,20.8,1.99
Yang et al. [38],62.4,8.4,90,40,6.1*,2.92,0.50,1.00,101~103,-,<10,27.8,2.18
Yang et al. [38],62.4,8.4,90,60,11.9*,2.86,0.50,0.83,74~76,-,<10,34.6,2.88
Yang et al. [38],62.4,8.4,90,60,11.9*,2.86,0.50,1.11,74~76,-,<10,24.3,2.08
Yang et al. [38],62.4,8.4,90,60,11.9*,2.86,0.50,1.43,74~76,-,<10,22.5,1.80
Yang et al. [38],62.4,8.4,90,80,11.9*,2.86,0.50,1.00,70~72,-,<10,30.1,2.20
Yang et al. [38],62.4,8.4,90,80,11.9*,2.86,0.50,1.11,70~72,-,<10,21.5,1.90
Yang et al. [38],62.4,8.4,90,80,11.9*,2.86,0.50,1.43,70~72,-,<10,17.5,1.87
Yang et al. [38],62.4,8.4,90,80,6.1*,2.92,0.50,1.00,81~83,-,<10,28.2,2.21
Yang et al. [38],62.4,8.4,90,80,6.1*,2.92,0.50,1.25,81~83,-,<10,27.0,2.01
Li et al. [39],-,-,7,80,6*,2.68,0.50,0.67,104,30,50,15.2,1.44
Li et al. [39],-,-,7,80,12*,2.68,0.50,0.67,114,30,50,16.4,1.59
Li et al. [39],-,-,7,80,18*,2.68,0.50,0.67,117,30,44,16.2,1.62
Li et al. [39],-,-,7,80,15*,2.68,0.50,0.67,108,30,49,15.8,1.58
Li et al. [39],-,-,7,80,6*,2.68,0.50,-,112,30,50,17.2,1.58
Li et al. [39],-,-,28,80,9*,2.68,0.50,0.67,112,30,48,26.2,2.33
Li et al. [39],-,-,28,80,15*,2.68,0.50,0.67,115,30,40,27.3,2.75
Li et al. [39],-,-,28,80,15*,2.68,0.50,0.67,110,30,36,26.5,2.48
Li et al. [39],-,-,28,80,9*,2.68,0.50,-,111,30,41,28.2,2.97
Li et al. [39],-,-,90,80,6*,2.68,0.50,0.67,104,30,50,29.9,3.54
Li et al. [39],-,-,90,80,12*,2.68,0.50,0.67,114,30,50,33.0,3.18
Li et al. [39],-,-,90,80,18*,2.68,0.50,0.67,117,30,44,37.1,3.21
Li et al. [39],-,-,90,80,15*,2.68,0.50,0.67,108,30,49,34.2,2.69
Li et al. [39],-,-,90,80,6*,2.68,0.50,-,112,30,50,39.6,3.11
Xing [40],52.9,8.4,7,80,15*,2.80,0.50,0.67,108,30,49,19.9,1.57
Xing [40],52.9,8.4,7,80,15*,2.80,0.50,0.67,114,30,45,18.4,1.50
Xing [40],52.9,8.4,28,80,15*,2.80,0.50,0.67,104,30,44,29.7,3.04
Xing [40],52.9,8.4,28,80,15*,2.80,0.50,0.67,110,30,36,28.5,2.91
Xing [40],52.9,8.4,28,80,15*,2.80,0.50,0.67,115,30,40,27.1,2.75
Xing [40],52.9,8.4,90,80,15*,2.80,0.50,0.67,108,30,49,40.2,3.37
Xing [40],52.9,8.4,90,80,15*,2.80,0.50,0.67,114,30,45,38.3,3.19
C. Parra et al. [41],39.42,-,7,12,19.2,-,0.37,0.65,178.75,53,-,26.56# ,1.92※
C. Parra et al. [41],39.42,-,90,12,19.2,-,0.37,0.65,178.75,53,-,39.94# ,3.32※
C. Parra et al. [41],39.42,-,28,12,19.2,-,0.34,0.55,178.75,53,-,40.49# ,3.03※
C. Parra et al. [41],48.07,-,7,12,19.2,-,0.34,0.55,178.75,53,-,43.15# ,2.90※
C. Parra et al. [41],48.07,-,90,12,19.2,-,0.34,0.55,178.75,53,-,63.70# ,4.10※
C. Parra et al. [41],48.07,-,28,12,19.2,-,0.31,0.45,180,53,-,63.72# ,3.86※
C. Parra et al. [41],39.42,-,7,12,19.2,-,0.40,0.65,178.75,54,145,28.00# ,2.22※
C. Parra et al. [41],39.42,-,90,12,19.2,-,0.40,0.65,178.75,54,145,44.25# ,3.47※
C. Parra et al. [41],39.42,-,28,12,19.2,-,0.36,0.55,178.75,54,135,41.43# ,3.52※
C. Parra et al. [41],48.07,-,7,12,19.2,-,0.36,0.55,178.75,54,140,42.97# ,3.61※
C. Parra et al. [41],48.07,-,90,12,19.2,-,0.36,0.55,178.75,54,140,60.65# ,4.59※
C. Parra et al. [41],48.07,-,28,12,19.2,-,0.32,0.45,180,54,140,65.37# ,4.69※
C. Parra et al. [41],48.07,-,90,12,19.2,-,0.32,0.45,180,54,140,73.70# ,4.76※

File: Updated_init_data.csv
,Compressive strength of cementfce(MPa),Tensile strength of cementfct(MPa),Curing age (day),Dmax of Crushed stone(mm),Stone powder content in Sand (%),Fineness modulus of sand ,W/B,Water to cement ratio mw/mc,Water(kg/m3),Sand ratio(%),Slump(mm),"Compressive strengthfcu,t(MPa)","Splitting tensile strengthfst,t(MPa)"
0,46.8,8.0,3,31.5,5.0,3.34,0.56,0.56,180.0,44.0,50.0,32.5,1.18
5,46.8,8.0,7,31.5,13.0,2.77,0.56,0.56,180.0,44.0,50.0,34.7,1.42
10,46.8,8.0,28,31.5,9.0,3.27,0.56,0.56,180.0,44.0,70.0,41.3,3.75
15,46.8,8.0,56,31.5,5.0,3.34,0.56,0.56,180.0,44.0,50.0,43.8,3.73
20,46.8,8.0,84,31.5,13.0,2.77,0.56,0.56,180.0,44.0,50.0,48.0,4.48
25,46.8,8.0,178,31.5,9.0,3.27,0.56,0.56,180.0,44.0,70.0,51.9,4.22
30,46.8,8.0,298,31.5,5.0,3.34,0.56,0.56,180.0,44.0,50.0,51.2,4.36
35,46.8,8.0,358,31.5,13.0,2.77,0.56,0.56,180.0,44.0,50.0,55.1,4.32
40,46.8,8.0,7,31.5,9.0,3.27,0.45,0.45,180.0,36.0,160.0,42.3,3.02
45,46.8,8.0,28,31.5,5.0,3.34,0.45,0.45,180.0,36.0,110.0,54.2,3.46
50,46.8,8.0,35,31.5,13.0,2.77,0.45,0.45,180.0,36.0,45.0,52.6,3.43
55,46.8,8.0,56,31.5,9.0,3.27,0.45,0.45,180.0,36.0,160.0,54.3,3.81
60,46.8,8.0,84,31.5,5.0,3.34,0.45,0.45,180.0,36.0,110.0,56.5,4.32
65,46.8,8.0,98,31.5,13.0,2.77,0.45,0.45,180.0,36.0,45.0,57.2,4.52
70,46.8,8.0,148,31.5,9.0,3.27,0.45,0.45,180.0,36.0,160.0,64.1,4.27
75,46.8,8.0,208,31.5,5.0,3.34,0.45,0.45,180.0,36.0,110.0,63.6,4.32
80,46.8,8.0,238,31.5,13.0,2.77,0.45,0.45,180.0,36.0,45.0,68.7,4.24
85,46.8,8.0,298,31.5,9.0,3.27,0.45,0.45,180.0,36.0,160.0,70.8,4.04
90,46.8,8.0,358,31.5,5.0,3.34,0.45,0.45,180.0,36.0,110.0,67.8,4.45
95,46.8,8.0,388,31.5,13.0,2.77,0.45,0.45,180.0,36.0,45.0,72.4,4.41
100,46.8,8.0,7,31.5,9.0,3.27,0.4,0.4,185.0,34.0,60.0,49.7,3.39
105,46.8,8.0,28,31.5,5.0,3.34,0.4,0.4,185.0,34.0,30.0,52.9,3.67
110,46.8,8.0,42,31.5,13.0,2.77,0.4,0.4,185.0,34.0,50.0,60.6,3.79
115,46.8,8.0,84,31.5,9.0,3.27,0.4,0.4,185.0,34.0,60.0,64.6,4.42
120,46.8,8.0,178,31.5,5.0,3.34,0.4,0.4,185.0,34.0,30.0,68.0,4.68
125,46.8,8.0,238,31.5,13.0,2.77,0.4,0.4,185.0,34.0,50.0,68.0,4.05
130,46.8,8.0,358,31.5,9.0,3.27,0.4,0.4,185.0,34.0,60.0,78.2,4.24
135,38.2,6.9,28,25.0,10.0,3.19,0.47,0.47,190.0,36.0,11.0,45.9,3.57
140,47.7,8.7,28,25.0,7.0,3.19,0.32,0.32,170.0,30.0,13.0,74.7,4.34
145,47.7,8.7,28,25.0,7.0,3.19,0.44,0.44,180.0,32.0,108.0,59.6,3.91
150,46.3,8.4,28,25.0,9.0,3.19,0.56,0.56,170.0,42.0,80.0,43.8,3.31
155,46.3,8.4,28,25.0,5.0,3.19,0.4,0.4,190.0,32.0,150.0,55.6,4.19
160,46.3,8.4,28,25.0,13.0,3.19,0.32,0.32,175.0,28.0,100.0,66.7,5.45
165,47.7,8.7,28,26.5,7.0,3.23,0.44,0.44,180.0,32.0,83.0,50.3,3.88
170,48.2,8.4,28,26.5,5.0,3.23,0.55,0.55,160.0,38.0,115.0,43.4,2.96
175,48.2,8.4,28,26.5,13.0,3.23,0.44,0.44,170.0,34.0,90.0,53.5,3.18
180,48.2,8.4,28,26.5,9.0,3.23,0.31,0.31,170.0,30.0,20.0,68.3,3.99
185,48.3,7.4,28,25.0,7.5,2.9,0.51,1.01,222.0,45.0,,57.0,2.87
190,,,28,31.5,5.8,3.1,0.42,0.42,185.0,36.0,36.0,38.3,3.04
195,,,28,,,,0.45,0.45,180.0,39.0,205.0,47.4,4.98
200,,,28,,10.8,2.76,,,,,,37.8,1.84
205,,,28,20.0,13.0,3.55,0.59,0.59,203.0,40.0,70.0,43.1,2.65
210,63.4,10.2,28,16.0,5.0,3.5,0.25,0.48,150.0,37.0,225.0,94.6,6.4
215,55.6,8.91,7,20.0,19.4,2.8,0.28,0.4,180.0,45.0,,28.3,2.24
220,,,28,40.0,7.1,,0.45,0.56,109.0,36.0,85.0,24.8,1.98
225,,,28,40.0,17.8,,0.45,0.56,122.0,36.0,88.0,33.2,2.68
230,,,28,40.0,11.2,,0.45,0.56,133.0,42.0,182.0,29.0,2.37
235,,,28,40.0,22.1,,0.45,0.56,146.0,42.0,173.0,30.9,2.41
240,,,7,40.0,18.0,,0.36,0.48,135.0,33.0,60.0,26.1,2.29
245,,,28,40.0,18.0,,0.36,0.48,135.0,33.0,60.0,41.1,3.07
250,,,90,40.0,18.0,,0.36,0.48,135.0,33.0,60.0,53.2,4.12
255,,,180,40.0,18.0,,0.36,0.48,135.0,33.0,60.0,58.8,4.5
260,52.5,8.8,3,20.0,5.4,3.11,0.34,0.34,158.0,42.0,105.0,48.2,3.6
265,52.7,9.0,28,31.5,6.6,2.94,0.42,0.42,185.0,36.0,35.0,35.6,3.04
270,52.7,9.0,3,31.5,6.6,2.94,0.42,0.42,185.0,32.0,25.0,23.6,1.69
275,52.7,9.0,28,31.5,6.6,2.94,0.46,0.46,185.0,36.0,40.0,37.2,3.24
280,43.7,7.5,90,25.0,0.4,2.3,0.3,0.425,153.0,41.0,220.0,80.8,4.82
285,43.7,7.5,7,25.0,2.3,3.1,0.3,0.428,152.0,38.0,210.0,56.9,3.58
290,43.7,7.5,180,25.0,2.3,3.1,0.3,0.428,152.0,38.0,210.0,83.5,5.05
295,43.7,7.5,60,25.0,,3.1,0.3,0.428,152.0,38.0,215.0,82.1,4.78
300,43.7,7.5,3,25.0,6.3,3.1,0.3,0.428,152.0,38.0,202.0,50.7,3.42
305,43.7,7.5,120,25.0,6.3,3.1,0.3,0.428,152.0,38.0,202.0,88.5,5.24
310,43.7,7.5,28,25.0,,3.1,0.3,0.3,152.0,38.0,205.0,78.8,4.61
315,43.7,7.5,365,25.0,,3.1,0.3,0.3,152.0,38.0,205.0,88.1,5.23
320,43.7,7.5,90,25.0,,3.1,0.32,0.457,152.0,39.0,208.0,82.5,4.96
325,55.8,10.8,28,,4.2,2.8,0.24,0.3,135.0,34.0,180.0,93.5,6.7
330,55.8,10.8,7,,4.2,2.8,0.24,0.3,135.0,34.0,180.0,82.4,5.8
335,55.2,8.9,28,25.0,0.8,2.85,0.33,0.47,168.0,38.8,220.0,67.4,4.38
340,55.2,8.9,28,25.0,0.8,2.85,0.33,0.47,155.0,37.0,130.0,69.3,4.5
345,55.2,8.9,28,25.0,0.8,2.85,0.33,0.47,145.0,35.0,115.0,70.8,4.55
350,55.2,8.9,28,25.0,0.8,2.85,0.35,0.47,154.0,38.0,160.0,66.5,3.85
355,55.2,8.9,28,25.0,0.8,2.85,0.3,0.43,120.0,38.0,50.0,78.0,4.35
360,55.2,8.9,28,25.0,0.8,2.85,0.3,0.43,248.0,38.0,50.0,74.0,4.13
365,,,28,20.0,,3.0,0.26,0.4,175.0,37.0,230.0,89.24,4.6
370,52.6,9.4,7,25.0,5.0,3.1,0.55,0.55,180.0,42.0,150.0,25.9,1.34
375,52.6,9.4,28,25.0,10.0,3.1,0.55,0.55,180.0,42.0,180.0,37.9,2.15
380,,,3,20.0,3.0,3.3,0.3,0.38,166.0,48.0,210.0,48.9,3.35
385,,,28,20.0,7.0,3.3,0.3,0.38,166.0,48.0,210.0,80.1,6.01
390,,,28,,,,0.44,0.44,,30.0,,54.0,3.96
395,,,28,80.0,16.8,2.8,0.46,0.46,160.0,32.0,,33.3,2.42
400,,,28,80.0,18.0,2.8,0.53,0.53,130.0,29.0,,24.9,1.84
405,,,28,80.0,20.0,2.8,0.58,0.58,134.0,29.0,,21.3,1.7
410,,,28,20.0,15.0,3.1,0.5,0.5,,,57.0,31.8,2.91
415,,,28,,25.9,3.3,0.5,0.5,,,58.0,26.5,2.36
420,,,28,40.0,25.0,,0.5,0.5,191.0,,,29.8,2.36
425,,,28,40.0,25.0,,0.6,0.6,187.0,,,23.1,1.99
430,,,28,80.0,25.0,,0.5,0.5,154.0,,,32.9,2.49
435,,,28,80.0,25.0,,0.7,0.7,154.0,,,22.5,1.7
440,44.8,7.9,7,31.5,15.0,2.6,0.5,0.5,180.0,42.0,210.0,25.4,1.72
445,47.6,8.5,7,40.0,12.0,3.2,0.55,0.55,175.0,41.0,85.0,30.1,1.7
450,51.7,9.1,28,25.0,6.0,3.2,0.38,0.38,179.0,35.0,180.0,61.3,4.25
455,60.8,8.5,28,80.0,,2.67,0.38,0.38,114.0,26.0,,39.8,2.71
460,47.7,7.9,28,80.0,,2.67,0.62,0.77,120.0,30.0,,18.2,1.8
465,,,28,80.0,21.0,2.54,0.4,0.5,110.0,24.0,56.0,39.6,2.74
470,,,7,,20.0,,0.4,0.4,190.0,30.0,5.0,38.4,2.4
475,,,7,,20.0,,0.7,0.7,190.0,34.0,5.0,16.3,1.08
480,,,7,,20.0,,1.0,1.0,190.0,42.0,5.0,10.5,0.8
485,,,28,,20.0,,0.4,0.4,190.0,30.0,5.0,50.5,3.23
490,,,28,,20.0,,0.7,0.7,190.0,34.0,5.0,27.7,1.62
495,,,28,,20.0,,1.0,1.0,190.0,42.0,5.0,14.2,1.23
500,,,7,80.0,15.0,2.8,0.5,0.66,110.0,30.0,36.0,19.2,1.53
505,,,28,80.0,15.0,2.8,0.5,0.66,110.0,30.0,36.0,28.5,2.91
510,,,90,80.0,15.0,2.8,0.5,0.66,110.0,30.0,36.0,39.4,3.26
515,,,7,120.0,12.1,2.56,0.55,0.92,83.5,26.5,55.0,8.1,0.56
520,,,7,120.0,12.1,2.56,0.45,0.64,98.0,29.5,46.0,16.7,1.21
525,,,28,120.0,12.1,2.56,0.55,0.92,83.5,27.0,55.0,16.4,1.39
530,,,28,80.0,12.1,2.56,0.45,0.64,98.0,30.0,51.0,31.1,2.08
535,,,90,120.0,12.1,2.56,0.45,0.64,98.0,29.5,60.0,36.7,2.45
540,,,7,,11.2,2.44,0.45,0.64,87.0,26.0,47.0,12.9,1.03
545,,,7,40.0,13.0,2.68,0.5,1.11,88.0,36.0,5.0,9.3,0.61
550,,,28,,11.2,2.44,0.45,0.64,87.0,26.0,47.0,22.3,1.56
555,,,28,40.0,13.0,2.68,0.5,1.11,88.0,36.0,5.0,19.9,1.62
560,,,90,40.0,13.0,2.68,0.5,1.0,88.0,36.0,5.0,28.0,2.12
565,,,28,80.0,10.8,2.42,0.45,0.64,98.0,30.0,33.0,28.8,1.71
570,,,90,80.0,12.4,2.57,0.45,0.64,95.0,31.0,40.0,44.0,3.0
575,62.4,8.4,7,40.0,11.9,2.86,0.5,1.11,88.0,,5.0,9.3,0.61
580,62.4,8.4,7,40.0,6.1,2.92,0.5,1.0,102.0,,5.0,9.2,0.72
585,62.4,8.4,7,60.0,11.9,2.86,0.5,1.25,75.0,,5.0,8.3,0.57
590,62.4,8.4,7,80.0,11.9,2.86,0.5,1.11,71.0,,5.0,9.0,0.64
595,62.4,8.4,7,80.0,6.1,2.92,0.5,1.11,82.0,,5.0,6.8,0.55
600,62.4,8.4,28,40.0,11.9,2.86,0.5,1.11,88.0,,5.0,19.9,1.62
605,62.4,8.4,28,40.0,6.1,2.92,0.5,1.0,102.0,,5.0,20.0,1.69
610,62.4,8.4,28,60.0,11.9,2.86,0.5,1.25,75.0,,5.0,16.9,1.09
615,62.4,8.4,28,80.0,11.9,2.86,0.5,1.11,71.0,,5.0,16.2,1.46
620,62.4,8.4,28,80.0,6.1,2.92,0.5,1.11,82.0,,5.0,14.0,1.06
625,62.4,8.4,90,40.0,11.9,2.86,0.5,1.11,88.0,,5.0,25.5,2.1
630,62.4,8.4,90,40.0,6.1,2.92,0.5,1.0,102.0,,5.0,27.8,2.18
635,62.4,8.4,90,60.0,11.9,2.86,0.5,1.25,75.0,,5.0,23.5,1.93
640,62.4,8.4,90,80.0,11.9,2.86,0.5,1.11,71.0,,5.0,21.5,1.9
645,62.4,8.4,90,80.0,6.1,2.92,0.5,1.11,82.0,,5.0,27.7,2.1
650,,,7,80.0,12.0,2.68,0.5,0.67,114.0,30.0,50.0,16.4,1.59
655,,,7,80.0,9.0,2.68,0.5,,111.0,30.0,41.0,16.6,1.54
660,,,28,80.0,15.0,2.68,0.5,0.67,115.0,30.0,40.0,27.3,2.75
665,,,28,80.0,6.0,2.68,0.5,,112.0,30.0,50.0,30.2,2.9
670,,,90,80.0,18.0,2.68,0.5,0.67,117.0,30.0,44.0,37.1,3.21
675,52.9,8.4,7,80.0,15.0,2.8,0.5,0.67,104.0,30.0,44.0,20.4,1.61
680,52.9,8.4,28,80.0,15.0,2.8,0.5,0.67,104.0,30.0,44.0,29.7,3.04
685,52.9,8.4,90,80.0,15.0,2.8,0.5,0.67,104.0,30.0,44.0,40.9,3.43
690,39.42,,7,12.0,19.2,,0.37,0.65,178.75,53.0,,26.56,1.92
695,39.42,,90,12.0,19.2,,0.34,0.55,178.75,53.0,,49.7,3.68
700,48.07,,28,12.0,19.2,,0.31,0.45,180.0,53.0,,63.72,3.86
705,39.42,,7,12.0,19.2,,0.36,0.55,178.75,54.0,135.0,33.42,2.31
710,48.07,,90,12.0,19.2,,0.36,0.55,178.75,54.0,140.0,60.65,4.59
713,48.07,,90,12.0,19.2,,0.32,0.45,180.0,54.0,140.0,73.7,4.76